p1.5_RF
Counts
SciMode:IT1=100.00ms:NS1=50:IT2=100.00ms:NS2=50:Obj=10X UV:(5/1/2025 12:37:06 PM)
500.26	-2.4802
501.03	-3.2400
501.81	-2.4001
502.58	-1.2600
503.36	-3.5798
504.13	-1.7800
504.90	-1.5801
505.68	-2.4399
506.45	-1.6199
507.23	-2.3401
508.00	-4.3799
508.78	-1.8000
509.55	-2.5200
510.32	-1.5798
511.10	-2.6401
511.87	-3.0801
512.64	-2.0400
513.42	-2.3601
514.19	-1.9800
514.97	-2.7400
515.74	-2.2600
516.51	-1.2200
517.29	-6.9602
518.06	-1.5200
518.83	-2.2200
519.60	-1.7000
520.38	-2.1199
521.15	-2.0999
521.92	-2.3401
522.70	-1.9199
523.47	-2.2600
524.24	-2.1201
525.01	-2.5801
525.79	-2.2600
526.56	-1.8000
527.33	-2.7400
528.10	-2.6201
528.88	-2.0000
529.65	-1.9199
530.42	-1.9399
531.19	-3.0601
531.96	-1.5000
532.74	-2.5801
533.51	-2.7002
534.28	-1.9800
535.05	-2.1199
535.82	-2.9802
536.59	-2.3398
537.36	-2.3201
538.14	-2.3201
538.91	-2.8201
539.68	-1.8198
540.45	-2.6599
541.22	-2.3801
541.99	-1.5400
542.76	-3.1401
543.53	-1.1802
544.30	-2.1001
545.07	-2.6602
545.85	-1.4800
546.62	-2.8999
547.39	-3.3000
548.16	-0.7998
548.93	-1.5200
549.70	-3.0000
550.47	-2.8000
551.24	-2.0000
552.01	-1.2200
552.78	-1.7400
553.55	-1.7800
554.32	-2.2400
555.09	-2.3398
555.86	-1.2600
556.63	-2.6799
557.40	-1.2000
558.17	-2.5400
558.94	-3.4202
559.70	-2.9800
560.47	-2.7400
561.24	-2.1001
562.01	-2.1399
562.78	-5.9199
563.55	-1.0601
564.32	-3.8000
565.09	-2.5200
565.86	-2.3398
566.63	-2.8201
567.39	-1.7600
568.16	-2.2002
568.93	-2.4600
569.70	-1.9001
570.47	-2.0999
571.24	-2.2400
572.00	-4.4800
572.77	-1.9802
573.54	-1.8801
574.31	-2.1602
575.08	-2.0400
575.84	-1.5000
576.61	-3.1001
577.38	-2.3799
578.15	-1.9800
578.91	-2.3801
579.68	-3.2400
580.45	-2.8201
581.22	-1.3999
581.98	-2.5400
582.75	-1.9600
583.52	-1.7600
584.29	-1.8601
585.05	-2.0200
585.82	-1.8601
586.59	-3.0400
587.35	-1.5400
588.12	-2.5601
588.89	-2.5400
589.65	-1.7800
590.42	-2.7800
591.19	-1.9800
591.95	-1.7400
592.72	-1.5601
593.48	-2.4600
594.25	-2.5801
595.02	-2.1399
595.78	-2.9602
596.55	-1.8398
597.31	-2.8000
598.08	-3.2600
598.84	-2.8000
599.61	-2.8999
600.38	-1.6599
601.14	-2.0000
601.91	-2.9001
602.67	-2.5200
603.44	-1.3198
604.20	-2.0400
604.97	-2.4800
605.73	-2.4600
606.50	-2.0601
607.26	-2.1201
608.03	-2.8201
608.79	-3.1799
609.56	-3.1599
610.32	-2.4402
611.08	-2.0798
611.85	-2.5598
612.61	-1.3201
613.38	-3.1401
614.14	-1.8999
614.91	-1.5598
615.67	-2.8000
616.43	-1.9800
617.20	-2.1001
617.96	-2.2600
618.73	-1.7000
619.49	-2.6799
620.25	-1.9600
621.02	-2.5400
621.78	-2.8401
622.54	-1.3999
623.31	-3.7800
624.07	-1.2200
624.83	-2.5200
625.60	-2.9001
626.36	-1.3201
627.12	-1.8999
627.88	-1.8201
628.65	-2.9202
629.41	-1.9199
630.17	-2.0798
630.93	-2.0801
631.70	-1.5601
632.46	-2.1799
633.22	-2.8201
633.98	-2.0798
634.75	-3.4800
635.51	-2.5598
636.27	-1.9600
637.03	-2.2000
637.79	-2.0601
638.56	-1.7200
639.32	-3.1401
640.08	-1.3398
640.84	-1.9800
641.60	-1.4199
642.36	-2.3401
643.13	-3.1201
643.89	-1.5798
644.65	-0.8401
645.41	-2.1799
646.17	-1.6599
646.93	-2.6401
647.69	-2.2400
648.45	-2.4202
649.21	-2.3401
649.97	-2.5200
650.73	-2.2000
651.50	-1.4600
652.26	-1.3401
653.02	-1.1399
653.78	-1.7202
654.54	-1.6802
655.30	-0.4600
656.06	-1.0000
656.82	-0.7400
657.58	0.0400
658.34	-0.8201
659.10	0.2200
659.86	0.2600
660.62	-3.6401
661.37	-0.1201
662.13	0.1399
662.89	-5.3999
663.65	0.9402
664.41	1.0000
665.17	0.8401
665.93	0.5000
666.69	1.5601
667.45	2.7998
668.21	3.3201
668.97	4.0601
669.72	5.0601
670.48	4.5801
671.24	3.7600
672.00	3.3398
672.76	4.3999
673.52	4.1001
674.28	4.9800
675.03	4.0000
675.79	5.2400
676.55	5.3599
677.31	4.2200
678.07	4.6599
678.82	5.3000
679.58	4.4600
680.34	5.8601
681.10	4.8601
681.85	5.4600
682.61	5.4800
683.37	4.7800
684.13	5.3198
684.88	4.3401
685.64	4.8999
686.40	5.9202
687.15	4.3601
687.91	6.3799
688.67	8.0400
689.42	8.0398
690.18	10.5400
690.94	18.3201
691.69	40.4600
692.45	103.5999
693.21	177.5000
693.96	238.7600
694.72	229.8201
695.48	145.2200
696.23	77.9199
696.99	54.3201
697.74	51.0999
698.50	50.8201
699.25	50.7600
700.01	51.6599
700.77	52.3601
701.52	57.5801
702.28	52.3601
703.03	43.5999
703.79	38.8599
704.54	43.0400
705.30	44.5798
706.05	40.9800
706.81	34.5000
707.56	31.4800
708.32	29.8599
709.07	26.5601
709.83	25.1399
710.58	22.9001
711.34	23.3601
712.09	23.1401
712.84	25.2800
713.60	25.6201
714.35	26.9001
715.11	26.8801
715.86	26.5200
716.61	27.4199
717.37	28.8999
718.12	26.8401
718.88	27.2998
719.63	25.4800
720.38	23.6599
721.14	22.2400
721.89	20.8801
722.64	18.2000
723.40	18.0000
724.15	16.8000
724.90	16.1802
725.66	16.2000
726.41	15.7998
727.16	16.4001
727.91	23.5200
728.67	17.4800
729.42	16.9399
730.17	17.6401
730.92	16.8201
731.68	17.1001
732.43	17.3401
733.18	17.2000
733.93	15.4199
734.69	17.1599
735.44	15.2200
736.19	12.3401
736.94	14.3799
737.69	14.8999
738.44	15.1399
739.20	14.6799
739.95	15.2002
740.70	17.2400
741.45	16.6799
742.20	20.2800
742.95	20.3398
743.70	22.0000
744.46	23.4202
745.21	23.8201
745.96	22.1399
746.71	23.9202
747.46	23.8999
748.21	21.0200
748.96	20.6199
749.71	20.5200
750.46	22.1599
751.21	23.1602
751.96	25.0398
752.71	26.3398
753.46	27.5400
754.21	28.8201
754.96	29.5801
755.71	31.1401
756.46	29.1799
757.21	31.6201
757.96	31.4600
758.71	31.9600
759.46	33.8401
760.21	33.9399
760.96	34.7000
761.71	36.4600
762.46	37.0200
763.21	35.2002
763.95	35.0000
764.70	31.3398
765.45	35.8201
766.20	36.3799
766.95	36.8000
767.70	39.4800
768.45	38.2400
769.20	37.3999
769.94	38.3201
770.69	38.6401
771.44	42.0000
772.19	44.5400
772.94	47.0801
773.68	48.2400
774.43	49.8201
775.18	48.8999
775.93	46.9602
776.68	46.8799
777.42	45.8198
778.17	42.5400
778.92	38.9800
779.66	37.9600
780.41	35.6001
781.16	34.2200
781.91	37.4199
782.65	31.1401
783.40	30.2600
784.15	29.6201
784.89	29.1001
785.64	28.7200
786.39	27.8601
787.13	28.6399
787.88	29.6799
788.63	29.2000
789.37	29.0601
790.12	30.1201
790.86	30.8398
791.61	30.4600
792.36	30.2200
793.10	30.4202
793.85	29.5801
794.59	28.2400
795.34	26.4402
796.09	26.0200
796.83	24.5601
797.58	23.1599
798.32	22.5400
799.07	21.5398
799.81	19.9399
